[
  {
    "resourceType": "Patient",
    "id": "122600",
    "name": [
      {
        "family": "Schorsten",
        "given": ["Inge"]
      }
    ],
    "telecom": [
      {
        "use": "home"
      },
      {
        "system": "phone",
        "value": "5555 6666"
      }
    ],
    "gender": "female",
    "birthDate": "1955-02-01",
    "address": [
      {
        "line": ["34 Bahnhof St"],
        "city": "Kempten",
        "state": "DE",
        "postalCode": "87437"
      }
    ]
  },
  {
    "resourceType": "MessageHeader",
    "id": "1cbdfb97-5859-48a4-8301-d54eab818d68",
    "destination": [
      {
        "receiver": {
          "reference": "Fremdsystem"
        }
      }
    ],
    "sender": {
      "reference": "MCC"
    },
    "focus": [
      {
        "reference": "Patient/122600 "
      }
    ]
  },
  {
    "resourceType": "ServiceRequest",
    "id": "di",
    "intent": "order",
    "code": {
      "concept": {
        "coding": [
          {
            "system": "http://loinc.org",
            "code": "24627-2"
          }
        ],
        "text": "Schädel RAD"
      }
    },
    "subject": {
      "reference": "Patient/122600"
    },
    "occurrenceDateTime": "2023-05-22T13:34:30+07:00",
    "requester": {
      "reference": "Practitioner/example",
      "display": "Dr. Ernst Nagel"
    },
    "reason": [
      {
        "concept": {
          "text": "Kopfverletzung"
        }
      }
    ]
  },
  {
    "resourceType": "AllergyIntolerance",
    "id": "medication",
    "category": ["medication"],
    "code": {
      "coding": [
        {
          "display": "Kontrastmittel"
        }
      ]
    },
    "patient": {
      "reference": "Patient/122600"
    },
    "actor": {
      "reference": "Practitioner/example"
    }
  },
  {
    "resourceType": "Observation",
    "id": "example",
    "category": [
      {
        "coding": [
          {
            "system": "http://terminology.hl7.org/CodeSystem/observation-category",
            "code": "vital-signs",
            "display": "Vital Signs"
          }
        ]
      }
    ],
    "code": {
      "coding": [
        {
          "system": "http://loinc.org",
          "code": "29463-7",
          "display": "Body Weight"
        },
        {
          "system": "http://loinc.org",
          "code": "3141-9",
          "display": "Body weight Measured"
        },
        {
          "system": "http://snomed.info/sct",
          "code": "27113001",
          "display": "Body weight"
        }
      ]
    },
    "subject": {
      "reference": "Patient/122600"
    },
    "encounter": {
      "reference": "Encounter/example"
    },
    "valueQuantity": {
      "value": 90,
      "unit": "kg"
    }
  },
  {
    "resourceType": "Encounter",
    "id": "example",
    "status": "in-progress",
    "class": {
      "system": "http://terminology.hl7.org/CodeSystem/v3-ActCode",
      "code": "OBSENC",
      "display": "observation encounter"
    },
    "subject": {
      "reference": "Patient/122600"
    },
    "subjectStatus": {
      "coding": [
        {
          "system": "http://terminology.hl7.org/CodeSystem/encounter-subject-status",
          "code": "receiving-care"
        }
      ]
    },
    "participant": [
      {
        "individual": {
          "reference": "Practitioner/f201"
        }
      }
    ]
  },
  {
    "resourceType": "Practitioner",
    "id": "example",

    "name": [
      {
        "family": "Nagel",
        "given": ["Ernst"],
        "prefix": ["Dr"]
      }
    ]
  },
  {
    "resourceType": "Location",
    "id": "1",
    "identifier": [
      {
        "value": " ST-11 FA-ACH "
      }
    ],
    "name": "ST-11 FA-ACH"
  },
  {
    "resourceType": "Organization",
    "id": "2",
    "identifier": [
      {
        "system": "http://fhir.de/sid/arge-ik/iknr",
        "value": "0009116769"
      }
    ],
    "name": "AOK Kempten",
    "address": [
      {
        "line": ["Postfach 1240"],
        "city": "Kempten",
        "postalCode": "0"
      }
    ]
  },
  {
    "resourceType": "Coverage",
    "id": "9876B1",
    "status": "active",
    "kind": "insurance",
    "policyHolder": {
      "reference": "Organization/2"
    },
    "subscriber": {
      "reference": "Patient/122600"
    },
    "beneficiary": {
      "reference": "Patient/122600"
    },
    "insurer": {
      "reference": "Organization/2"
    },
    "class": {
      "type": {
        "coding": [
          {
            "system": "http://terminology.hl7.org/CodeSystem/coverage-class",
            "code": "plan"
          }
        ]
      },
      "value": {
        "value": "5000374"
      }
    }
  }
]
